id-1: {"resourceType":"Bundle","type":"batch","entry":[{"fullUrl":"Patient\/pid.999","resource":{"resourceType":"Patient","id":"pid.999","meta":{"source":"#p21"},"identifier":[{"use":"usual","type":{"coding":[{"system":"http:\/\/terminology.hl7.org\/CodeSystem\/v2-0203","code":"MR"}]},"system":"https:\/\/miracum.org\/fhir\/NamingSystem\/identifier\/PatientId","value":"pid.999"},{"use":"official","type":{"coding":[{"system":"http:\/\/fhir.de\/CodeSystem\/identifier-type-de-basis","code":"GKV"}]},"system":"http:\/\/fhir.de\/NamingSystem\/gkv\/kvid-10","value":"5678","assigner":{"identifier":{"use":"official","system":"http:\/\/fhir.de\/NamingSystem\/arge-ik\/iknr","value":"109905113"}}}],"name":[{"extension":[{"url":"http:\/\/hl7.org\/fhir\/StructureDefinition\/data-absent-reason","valueCode":"unsupported"}]}],"gender":"unknown","birthDate":"1941-01-01","deceasedDateTime":"2018-08-05T21:28:00+02:00","address":[{"type":"physical","city":"Buschau","postalCode":"12365"}]},"request":{"method":"PUT","url":"Patient\/pid.999"}},{"fullUrl":"Encounter\/cid.106","resource":{"resourceType":"Encounter","id":"cid.106","meta":{"source":"#p21"},"extension":[{"url":"https:\/\/fhir.miracum.org\/core\/StructureDefinition\/aufnahmegrund","extension":[{"url":"aufnahmegrundPrefix","valueCoding":{"system":"https:\/\/fhir.miracum.org\/core\/CodeSystem\/aufnahmegrundPrefix","code":"01","display":"Krankenhausbehandlung, vollstation\u00e4r"}},{"url":"aufnahmegrundDritteStelle","valueCoding":{"system":"https:\/\/fhir.miracum.org\/core\/CodeSystem\/aufnahmegrundDritteStelle","code":"0","display":"Anderes"}},{"url":"aufnahmegrundVierteStelle","valueCoding":{"system":"https:\/\/fhir.miracum.org\/core\/CodeSystem\/aufnahmegrundVierteStelle","code":"7","display":"Notfall"}}]},{"url":"https:\/\/fhir.miracum.org\/core\/StructureDefinition\/arbeitsfaehigkeit-bei-entlassung","valueCoding":{"system":"https:\/\/fhir.miracum.org\/core\/CodeSystem\/entlassgrundDritteStelle","code":"9","display":"keine Angabe"}}],"identifier":[{"use":"usual","type":{"coding":[{"system":"http:\/\/terminology.hl7.org\/CodeSystem\/v2-0203","code":"VN"}]},"system":"https:\/\/miracum.org\/fhir\/NamingSystem\/identifier\/EncounterId","value":"cid.106"}],"status":"finished","class":{"system":"http:\/\/terminology.hl7.org\/CodeSystem\/v3-ActCode","code":"IMP","display":"inpatient encounter"},"subject":{"reference":"Patient\/pid.999"},"period":{"start":"2018-07-31T20:32:00+02:00","end":"2018-08-05T21:28:00+02:00"},"reasonCode":[{"coding":[{"system":"https:\/\/www.medizininformatik-initiative.de\/fhir\/core\/CodeSystem\/Aufnahmeanlass","code":"A","display":"Verlegung mit Behandlungsdauer im verlegenden Krankenhaus bis zu 24 Stunden"},{"system":"https:\/\/fhir.miracum.org\/core\/CodeSystem\/aufnahmeanlass","code":"A","display":"Verlegung mit Behandlungsdauer im verlegenden Krankenhaus bis zu 24 Stunden"},{"system":"http:\/\/terminology.hl7.org\/CodeSystem\/admit-source","code":"hosp-trans","display":"Transferred from other hospital"}]},{"coding":[{"system":"https:\/\/fhir.miracum.org\/core\/CodeSystem\/aufnahmegrundPrefix","code":"01","display":"Krankenhausbehandlung, vollstation\u00e4r"},{"system":"https:\/\/www.medizininformatik-initiative.de\/fhir\/core\/CodeSystem\/Aufnahmegrund","code":"01","display":"Krankenhausbehandlung, vollstation\u00e4r"}]}],"hospitalization":{"extension":[{"url":"https:\/\/www.medizininformatik-initiative.de\/fhir\/core\/StructureDefinition\/Entlassungsgrund","valueCodeableConcept":{"coding":[{"system":"https:\/\/fhir.miracum.org\/core\/CodeSystem\/entlassgrundPrefix","version":"0.3.0","code":"07","display":"Tod"},{"system":"https:\/\/www.medizininformatik-initiative.de\/fhir\/core\/CodeSystem\/Entlassungsgrund","version":"0.9","code":"07","display":"Tod"},{"system":"http:\/\/terminology.hl7.org\/CodeSystem\/discharge-disposition","code":"exp","display":"Expired"}]}}],"admitSource":{"coding":[{"system":"https:\/\/www.medizininformatik-initiative.de\/fhir\/core\/CodeSystem\/Aufnahmeanlass","code":"A","display":"Verlegung mit Behandlungsdauer im verlegenden Krankenhaus bis zu 24 Stunden"},{"system":"https:\/\/fhir.miracum.org\/core\/CodeSystem\/aufnahmeanlass","code":"A","display":"Verlegung mit Behandlungsdauer im verlegenden Krankenhaus bis zu 24 Stunden"},{"system":"http:\/\/terminology.hl7.org\/CodeSystem\/admit-source","code":"hosp-trans","display":"Transferred from other hospital"}]},"dischargeDisposition":{"coding":[{"system":"https:\/\/fhir.miracum.org\/core\/CodeSystem\/entlassgrundPrefix","version":"0.3.0","code":"07","display":"Tod"},{"system":"https:\/\/www.medizininformatik-initiative.de\/fhir\/core\/CodeSystem\/Entlassungsgrund","version":"0.9","code":"07","display":"Tod"},{"system":"http:\/\/terminology.hl7.org\/CodeSystem\/discharge-disposition","code":"exp","display":"Expired"}]}}},"request":{"method":"PUT","url":"Encounter\/cid.106"}}]}
id-2: {"resourceType":"Bundle","type":"batch","entry":[{"fullUrl":"Observation\/id-6457799fed46dffc","resource":{"resourceType":"Observation","id":"id-6457799fed46dffc","meta":{"source":"#p21"},"identifier":[{"system":"https:\/\/miracum.org\/fhir\/NamingSystem\/identifier\/P21SurrogateObservationId","value":"id-6457799fed46dffc"}],"status":"final","code":{"coding":[{"system":"http:\/\/loinc.org","version":"2.46","code":"74200-7","display":"Days in intensive care unit"}]},"subject":{"reference":"Patient\/pid.1001"},"encounter":{"reference":"Encounter\/cid.108"},"effectivePeriod":{"start":"2018-07-31T20:32:00+02:00"},"valueQuantity":{"value":2,"unit":"d","system":"http:\/\/unitsofmeasure.org","code":"d"}},"request":{"method":"PUT","url":"Observation\/id-6457799fed46dffc"}},{"fullUrl":"Patient\/pid.1001","resource":{"resourceType":"Patient","id":"pid.1001","meta":{"source":"#p21"},"identifier":[{"use":"usual","type":{"coding":[{"system":"http:\/\/terminology.hl7.org\/CodeSystem\/v2-0203","code":"MR"}]},"system":"https:\/\/miracum.org\/fhir\/NamingSystem\/identifier\/PatientId","value":"pid.1001"},{"use":"official","type":{"coding":[{"system":"http:\/\/fhir.de\/CodeSystem\/identifier-type-de-basis","code":"GKV"}]},"system":"http:\/\/fhir.de\/NamingSystem\/gkv\/kvid-10","value":"5678","assigner":{"identifier":{"use":"official","system":"http:\/\/fhir.de\/NamingSystem\/arge-ik\/iknr","value":"109915113"}}}],"name":[{"extension":[{"url":"http:\/\/hl7.org\/fhir\/StructureDefinition\/data-absent-reason","valueCode":"unsupported"}]}],"birthDate":"1941-01-01","deceasedBoolean":true,"address":[{"type":"physical","city":"Buschau","postalCode":"12365"}]},"request":{"method":"PUT","url":"Patient\/pid.1001"}},{"fullUrl":"Encounter\/cid.108","resource":{"resourceType":"Encounter","id":"cid.108","meta":{"source":"#p21"},"extension":[{"url":"https:\/\/fhir.miracum.org\/core\/StructureDefinition\/aufnahmegrund","extension":[{"url":"aufnahmegrundPrefix","valueCoding":{"system":"https:\/\/fhir.miracum.org\/core\/CodeSystem\/aufnahmegrundPrefix","code":"01","display":"Krankenhausbehandlung, vollstation\u00e4r"}},{"url":"aufnahmegrundDritteStelle","valueCoding":{"system":"https:\/\/fhir.miracum.org\/core\/CodeSystem\/aufnahmegrundDritteStelle","code":"0","display":"Anderes"}},{"url":"aufnahmegrundVierteStelle","valueCoding":{"system":"https:\/\/fhir.miracum.org\/core\/CodeSystem\/aufnahmegrundVierteStelle","code":"7","display":"Notfall"}}]},{"url":"https:\/\/fhir.miracum.org\/core\/StructureDefinition\/arbeitsfaehigkeit-bei-entlassung","valueCoding":{"system":"https:\/\/fhir.miracum.org\/core\/CodeSystem\/entlassgrundDritteStelle","code":"9","display":"keine Angabe"}}],"identifier":[{"use":"usual","type":{"coding":[{"system":"http:\/\/terminology.hl7.org\/CodeSystem\/v2-0203","code":"VN"}]},"system":"https:\/\/miracum.org\/fhir\/NamingSystem\/identifier\/EncounterId","value":"cid.108"}],"status":"in-progress","class":{"system":"http:\/\/terminology.hl7.org\/CodeSystem\/v3-ActCode","code":"IMP","display":"inpatient encounter"},"subject":{"reference":"Patient\/pid.1001"},"period":{"start":"2018-07-31T20:32:00+02:00"},"reasonCode":[{"coding":[{"system":"https:\/\/www.medizininformatik-initiative.de\/fhir\/core\/CodeSystem\/Aufnahmeanlass","code":"A","display":"Verlegung mit Behandlungsdauer im verlegenden Krankenhaus bis zu 24 Stunden"},{"system":"https:\/\/fhir.miracum.org\/core\/CodeSystem\/aufnahmeanlass","code":"A","display":"Verlegung mit Behandlungsdauer im verlegenden Krankenhaus bis zu 24 Stunden"},{"system":"http:\/\/terminology.hl7.org\/CodeSystem\/admit-source","code":"hosp-trans","display":"Transferred from other hospital"}]},{"coding":[{"system":"https:\/\/fhir.miracum.org\/core\/CodeSystem\/aufnahmegrundPrefix","code":"01","display":"Krankenhausbehandlung, vollstation\u00e4r"},{"system":"https:\/\/www.medizininformatik-initiative.de\/fhir\/core\/CodeSystem\/Aufnahmegrund","code":"01","display":"Krankenhausbehandlung, vollstation\u00e4r"}]}],"hospitalization":{"extension":[{"url":"https:\/\/www.medizininformatik-initiative.de\/fhir\/core\/StructureDefinition\/Entlassungsgrund","valueCodeableConcept":{"coding":[{"system":"https:\/\/fhir.miracum.org\/core\/CodeSystem\/entlassgrundPrefix","version":"0.3.0","code":"07","display":"Tod"},{"system":"https:\/\/www.medizininformatik-initiative.de\/fhir\/core\/CodeSystem\/Entlassungsgrund","version":"0.9","code":"07","display":"Tod"},{"system":"http:\/\/terminology.hl7.org\/CodeSystem\/discharge-disposition","code":"exp","display":"Expired"}]}}],"admitSource":{"coding":[{"system":"https:\/\/www.medizininformatik-initiative.de\/fhir\/core\/CodeSystem\/Aufnahmeanlass","code":"A","display":"Verlegung mit Behandlungsdauer im verlegenden Krankenhaus bis zu 24 Stunden"},{"system":"https:\/\/fhir.miracum.org\/core\/CodeSystem\/aufnahmeanlass","code":"A","display":"Verlegung mit Behandlungsdauer im verlegenden Krankenhaus bis zu 24 Stunden"},{"system":"http:\/\/terminology.hl7.org\/CodeSystem\/admit-source","code":"hosp-trans","display":"Transferred from other hospital"}]},"dischargeDisposition":{"coding":[{"system":"https:\/\/fhir.miracum.org\/core\/CodeSystem\/entlassgrundPrefix","version":"0.3.0","code":"07","display":"Tod"},{"system":"https:\/\/www.medizininformatik-initiative.de\/fhir\/core\/CodeSystem\/Entlassungsgrund","version":"0.9","code":"07","display":"Tod"},{"system":"http:\/\/terminology.hl7.org\/CodeSystem\/discharge-disposition","code":"exp","display":"Expired"}]}}},"request":{"method":"PUT","url":"Encounter\/cid.108"}}]}
id-3: { "resourceType": "Observation", "id": "f001", "identifier": [ { "use": "official", "type": { "coding": [ { "system": "http://terminology.hl7.org/CodeSystem/v2-0203", "code": "MR" } ] }, "system": "http://www.bmc.nl/zorgportal/identifiers/observations", "value": "6323" } ], "status": "final", "code": { "coding": [ { "system": "http://loinc.org", "code": "15074-8", "display": "Glucose [Moles/volume] in Blood" } ] }, "subject": { "reference": "Patient/f001", "display": "P. van de Heuvel" }, "encounter": { "reference": "Encounter/e001" }, "effectivePeriod": { "start": "2013-04-02T09:30:10+01:00" }, "issued": "2013-04-03T15:30:10+01:00", "performer": [ { "reference": "Practitioner/f005", "display": "A. Langeveld" } ], "valueQuantity": { "value": 6.3, "unit": "mmol/l", "system": "http://unitsofmeasure.org", "code": "mmol/L" }, "interpretation": [ { "coding": [ { "system": "http://terminology.hl7.org/CodeSystem/v3-ObservationInterpretation", "code": "H", "display": "High" } ] } ], "referenceRange": [ { "low": { "value": 3.1, "unit": "mmol/l", "system": "http://unitsofmeasure.org", "code": "mmol/L" }, "high": { "value": 6.2, "unit": "mmol/l", "system": "http://unitsofmeasure.org", "code": "mmol/L" } } ] }
